File: Data/dataset_test.csv
,Capacity dV CCCT,Charge time dV CCCT,Coefficient of skewness CCCV,Discharge_Q,Energy dV CCCT,Entropy dV CCCT,Entropy dV CCCT Shannon,Frechet Distance CC curve,Group,Hausdorff Distance CC curve,Kurtosis coefficient CCCV,Lagged Cumulated Discharge Capacity,Lagged Cumulated Discharge Energy,Lagged Pseudo Resistace,Lagged cycle time,Mean DV CCCV,Recovery Voltage,SOH_discharge_capacity,Slope CCCV-CCCT
0,575.536,0.00487269,0.0105972,735.336,575.536,0.130333,8.64746,0.846894,8005.0,6.39101,0.127964,0.0,0.0,0.0,0.0,0.481465,2.69981,1.0,18.4778
1,566.012,0.00483796,0.0118272,726.327,566.012,0.127771,8.62936,0.846882,8005.0,6.4031,0.130703,735.336,2304.25,0.0217825,0.0819167,0.479344,2.70009,0.987749,18.6019
2,560.892,0.00481481,0.0131517,721.614,560.892,0.129791,8.633,0.846874,8005.0,6.39062,0.131124,1461.66,4579.07,0.0186782,0.162778,0.478482,2.70001,0.98134,18.7326
3,557.772,0.00479167,0.0142312,718.141,557.772,0.130554,8.62205,0.846866,8005.0,6.39926,0.133279,2183.28,6840.26,0.0175768,0.243096,0.476711,2.69986,0.976616,18.7478
4,552.542,0.00476851,0.0150718,713.498,552.542,0.125574,8.633,0.846858,8005.0,6.37109,0.132864,2901.42,9091.71,0.0187653,0.323039,0.474819,2.70006,0.970302,18.9559
5,549.137,0.00476851,0.0158983,709.929,549.137,0.127251,8.63662,0.846858,8005.0,6.38576,0.1343,3614.92,11329.4,0.0172633,0.402417,0.473848,2.699775,0.965449,18.9643
6,545.806,0.00474536,0.0163535,706.72,545.806,0.129138,8.62571,0.846849,8005.0,6.38527,0.135552,4324.85,13556.4,0.017063,0.481387,0.473227,2.70014,0.961084,18.9808
7,543.448,0.00475694,0.0169583,704.407,543.448,0.130133,8.62936,0.846853,8005.0,6.38927,0.135704,5031.57,15774.3,0.0176638,0.559993,0.472026,2.70001,0.957939,18.9683
8,539.747,0.00472222,0.0174101,701.03,539.747,0.127975,8.62571,0.846841,8005.0,6.37956,0.136758,5735.97,17985.6,0.0187855,0.638357,0.471801,2.70005,0.953346,19.0144
9,537.064,0.00472222,0.017948,698.25,537.064,0.126784,8.60733,0.846841,8005.0,6.37553,0.136871,6437,20187.1,0.016883,0.716314,0.470516,2.69981,0.949566,19.099
10,534.59,0.00472222,0.0186343,695.558,534.59,0.128586,8.633,0.846841,8005.0,6.39527,0.138652,7135.25,22380.5,0.0172835,0.793946,0.469675,2.70005,0.945904,19.0652
11,531.495,0.00471068,0.0190307,692.553,531.495,0.131491,8.60363,0.846837,8005.0,6.38234,0.138363,7830.81,24566,0.0180845,0.871268,0.46922,2.70005,0.941819,19.0863
12,529.24,0.00472226,0.0194194,689.778,529.24,0.125786,8.61102,0.846841,8005.0,6.39406,0.138692,8523.36,26742.5,0.017684,0.948248,0.469633,2.69981,0.938044,19.065
13,526.362,0.00473383,0.020584,687.114,526.362,0.127797,8.59619,0.846845,8005.0,6.43498,0.14177,9213.14,28910.7,0.0181848,1.02491,0.46738,2.70009,0.934421,18.9763
14,523.903,0.00474543,0.0206631,684.528,523.903,0.128273,8.58871,0.846849,8005.0,6.42943,0.140716,9900.25,31070.8,0.0181848,1.10126,0.467662,2.69989,0.930904,18.9721
15,518.362,0.00476852,0.0217091,678.644,518.362,0.129698,8.61839,0.846858,8005.0,6.43748,0.140955,10584.8,33223.1,0.017684,1.17731,0.465293,2.700145,0.922903,18.9308
16,512.413,0.00479167,0.0227134,672.726,512.413,0.128373,8.63662,0.846866,8005.0,6.47246,0.142856,11263.4,35358.4,0.0211458,1.2527,0.463867,2.70006,0.914856,18.7811
17,509.531,0.00482639,0.0232392,669.604,509.531,0.127025,8.64746,0.846878,8005.0,6.51049,0.144319,11936.2,37475.6,0.0206452,1.32739,0.462748,2.7002,0.910609,18.6464
18,506.664,0.00483796,0.0232504,666.562,506.664,0.128605,8.64746,0.846882,8005.0,6.48614,0.141745,12605.8,39583.8,0.0212065,1.40172,0.463916,2.70018,0.906472,18.6266
19,503.986,0.00484953,0.0227922,664.112,503.986,0.128397,8.65105,0.846886,8005.0,6.50107,0.142231,13272.3,41682.8,0.0219612,1.47571,0.464082,2.70002,0.903141,18.64
20,501.316,0.00489583,0.0238848,661.116,501.316,0.129566,8.64746,0.846902,8005.0,6.55086,0.144313,13936.4,43773.3,0.0204593,1.54937,0.461756,2.70013,0.899066,18.407
21,498.633,0.00486111,0.0231266,659.085,498.633,0.128681,8.66534,0.84689,8005.0,6.51475,0.142822,14597.5,45855.7,0.0220793,1.62272,0.463779,2.70005,0.896305,18.4806
22,495.967,0.00494213,0.0236538,655.625,495.967,0.128617,8.65105,0.846918,8005.0,6.57388,0.143666,15256.6,47930.7,0.0213782,1.69579,0.461765,2.69986,0.891599,18.2754
23,493.491,0.00493055,0.0232906,653.572,493.491,0.126426,8.67243,0.846914,8005.0,6.56623,0.143342,15912.3,49996.2,0.0232605,1.7685,0.46387,2.69986,0.888807,18.3264
24,490.406,0.00498843,0.0235848,650.18,490.406,0.127809,8.6865,0.846933,8005.0,6.59516,0.143014,16565.8,52054.3,0.022059,1.84092,0.462718,2.69988,0.884195,18.0581
25,488.352,0.00494212,0.023148,648.655,488.352,0.129156,8.67243,0.846918,8005.0,6.56641,0.142842,17216,54103.7,0.0233107,1.913,0.463419,2.7,0.882121,18.2431
26,485.887,0.0049537,0.0231587,646.373,485.887,0.127893,8.66178,0.846921,8005.0,6.58686,0.143931,17864.7,56147,0.0224095,1.98485,0.462961,2.70012,0.879017,18.1602
27,483.442,0.0050463,0.0233937,643.068,483.442,0.128504,8.71081,0.846951,8005.0,6.63238,0.143043,18511,58182.9,0.0231105,2.05643,0.462603,2.69992,0.874523,17.8594
28,481.763,0.00498842,0.0231904,642.136,481.763,0.129573,8.67243,0.846933,8005.0,6.61002,0.144229,19154.1,60211.1,0.0245122,2.12768,0.462265,2.69996,0.873255,18.034
29,479.097,0.00498842,0.0224312,639.808,479.097,0.128636,8.6865,0.846933,8005.0,6.57734,0.141276,19796.2,62234.5,0.023511,2.19876,0.463877,2.69984,0.870089,18.0822
30,476.853,0.00510417,0.0228323,636.619,476.853,0.127531,8.72451,0.84697,8005.0,6.65775,0.141887,20436,64250.1,0.0241117,2.26957,0.463761,2.70004,0.865752,17.7122
31,475.2,0.00501157,0.0224152,635.565,475.2,0.127757,8.66888,0.84694,8005.0,6.60564,0.142314,21072.7,66257.7,0.0261145,2.34006,0.464862,2.70016,0.86432,17.9669
32,470.893,0.00510417,0.0226719,629.153,470.893,0.128189,8.71768,0.84697,8005.0,6.6676,0.14238,21708.2,68260,0.0241117,2.41037,0.464069,2.7002,0.855599,17.6025
33,469.248,0.00505786,0.022119,628.58,469.248,0.126813,8.7039,0.846955,8005.0,6.62192,0.141065,22337.4,70246.1,0.0285178,2.48005,0.465089,2.69988,0.85482,17.787
34,465.131,0.00509259,0.0217624,626.454,465.131,0.128766,8.72451,0.846966,8005.0,6.6266,0.139541,22966,72229.8,0.0234107,2.5496,0.466174,2.70004,0.851929,17.7288
35,464.32,0.00517361,0.0220372,622.743,464.32,0.129482,8.73809,0.846991,8005.0,6.69148,0.140667,23592.4,74206.7,0.0240115,2.61879,0.464951,2.70016,0.846882,17.4595
36,462.862,0.00508101,0.0212406,622.226,462.862,0.1276,8.7211,0.846962,8005.0,6.61381,0.139118,24215.2,76174.7,0.0259143,2.68772,0.466152,2.7,0.846178,17.7376
37,460.389,0.00509258,0.0214682,620.054,460.389,0.13043,8.7039,0.846966,8005.0,6.63935,0.14064,24837.4,78139.5,0.0245122,2.75653,0.464606,2.70012,0.843226,17.7366
38,457.526,0.00519676,0.0216797,616.993,457.526,0.129997,8.74819,0.846998,8005.0,6.70589,0.140486,25457.4,80097,0.0253135,2.82508,0.46553,2.70004,0.839062,17.3665
39,455.876,0.00511574,0.0213891,616.003,455.876,0.12896,8.71768,0.846973,8005.0,6.6526,0.140459,26074.4,82046.6,0.0288183,2.8933,0.465244,2.69977,0.837716,17.594
40,453.612,0.00509259,0.0208677,614.413,453.612,0.127709,8.73809,0.846966,8005.0,6.62484,0.139278,26690.4,83991.6,0.02788,2.96138,0.466532,2.70005,0.835554,17.7209
41,451.333,0.00508101,0.0209761,612.444,451.333,0.131246,8.6865,0.846963,8005.0,6.63115,0.140419,27304.9,85930,0.0262778,3.02923,0.465837,2.69997,0.832877,17.7219
42,448.693,0.00518519,0.0209348,609.528,448.693,0.130708,8.73132,0.846995,8005.0,6.67044,0.138191,27917.3,87861.6,0.0274795,3.09685,0.467535,2.70009,0.82891,17.4052
43,447.447,0.00506944,0.0203665,608.983,447.447,0.126628,8.71425,0.846959,8005.0,6.59828,0.13816,28526.8,89786.8,0.032286,3.16416,0.467587,2.69997,0.828169,17.7386
44,443.538,0.00509259,0.0205427,605.354,443.538,0.132038,8.71081,0.846966,8005.0,6.63924,0.140406,29135.8,91707.1,0.028581,3.23136,0.465905,2.70005,0.823235,17.6896
45,322.578,0.00415509,0.023755,456.129,322.578,0.129393,8.43463,0.846606,8005.0,6.03316,0.144349,29741.2,93615.5,0.02919,3.29813,0.46213,2.699975,0.6203,21.6216
46,571.691,0.00489583,0.0109986,732.795,571.691,0.126758,8.66178,0.846902,8006.0,6.4089,0.128748,0.0,0.0,0.0,0.0,0.479673,2.69993,1.0,18.3506
47,564.009,0.00482638,0.0117836,724.684,564.009,0.128888,8.62205,0.846878,8006.0,6.36904,0.129077,732.795,2296.75,0.0254743,0.0815553,0.479431,2.69997,0.988932,18.6803
48,559.049,0.00479166,0.0129526,719.978,559.049,0.125638,8.66534,0.846866,8006.0,6.38038,0.131798,1457.48,4567.34,0.0197582,0.162155,0.477226,2.69989,0.98251,18.7569
49,556.056,0.00478009,0.0141324,716.761,556.056,0.126923,8.62936,0.846862,8006.0,6.38696,0.133091,2177.46,6823.91,0.0192575,0.242228,0.476075,2.69992,0.978119,18.8358
50,551.09,0.00474537,0.0150348,711.674,551.09,0.128308,8.61102,0.846849,8006.0,6.36115,0.133197,2894.22,9071.21,0.0203685,0.321936,0.475728,2.70016,0.971177,18.9733
51,547.585,0.00475694,0.0160317,707.777,547.585,0.127176,8.64024,0.846854,8006.0,6.38311,0.134599,3605.89,11303.8,0.018062,0.401056,0.474707,2.70004,0.96586,18.9693
52,543.93,0.00472222,0.0163809,704.249,543.93,0.127254,8.60733,0.846841,8006.0,6.3527,0.134341,4313.67,13524.4,0.0185638,0.479749,0.473313,2.70008,0.961046,19.083
53,542.738,0.00475694,0.0171238,702.81,542.738,0.126646,8.61471,0.846854,8006.0,6.39246,0.136151,5017.92,15734.6,0.0185638,0.55804,0.471262,2.70004,0.959081,19.0197
54,538.612,0.00471064,0.0174956,698.814,538.612,0.128828,8.59991,0.846837,8006.0,6.35405,0.135536,5720.73,17940.8,0.019074,0.636225,0.47243,2.69996,0.953629,19.0873
55,535.94,0.00472222,0.0180513,696.026,535.94,0.126467,8.62205,0.846841,8006.0,6.38407,0.137548,6419.54,20135.6,0.0181715,0.713932,0.47079,2.70012,0.949824,19.0745
56,532.837,0.00472222,0.0184143,692.813,532.837,0.128759,8.61471,0.846841,8006.0,6.38629,0.137865,7115.57,22322,0.0181715,0.791319,0.470406,2.69996,0.94544,19.1
57,529.972,0.00471068,0.0190327,689.806,529.972,0.127643,8.62571,0.846837,8006.0,6.39521,0.139608,7808.38,24498.9,0.0182718,0.868338,0.468722,2.69996,0.941336,19.0871
58,527.287,0.00472226,0.019761,686.86,527.287,0.129968,8.60363,0.846841,8006.0,6.40866,0.140183,8498.19,26667,0.0187735,0.945013,0.468166,2.70012,0.937316,19.0658
59,524.199,0.00472226,0.0201399,683.779,524.199,0.126701,8.62571,0.846841,8006.0,6.41976,0.141302,9185.05,28826.3,0.018472,1.02135,0.46686,2.70036,0.933111,19.0405
60,521.319,0.00472228,0.0204298,680.869,521.319,0.128085,8.58871,0.846841,8006.0,6.39973,0.139932,9868.83,30976.4,0.0200765,1.09733,0.466983,2.7,0.929141,19.0827
61,515.648,0.00478009,0.0218082,674.4,515.648,0.129016,8.5812,0.846862,8006.0,6.46243,0.14235,10549.7,33117.7,0.0193755,1.17298,0.465439,2.70007,0.920312,18.8692
62,510.26,0.00479167,0.0225238,669.183,510.26,0.127365,8.65105,0.846866,8006.0,6.46674,0.142389,11224.1,35240.6,0.0219958,1.2479,0.464314,2.69995,0.913193,18.8154
63,507.411,0.00481482,0.0229722,666.007,507.411,0.12772,8.633,0.846874,8006.0,6.49096,0.143203,11893.3,37347.5,0.0228983,1.32221,0.464194,2.70002,0.908859,18.6919
64,504.097,0.00482639,0.0232726,662.608,504.097,0.130214,8.65105,0.846878,8006.0,6.48787,0.1425,12559.3,39445.4,0.0231343,1.39615,0.464426,2.70004,0.90422,18.6389
65,501.426,0.00483796,0.0230884,660.062,501.426,0.129774,8.62936,0.846882,8006.0,6.51594,0.143992,13221.9,41533.3,0.023896,1.4697,0.463988,2.69996,0.900745,18.6028
66,497.959,0.00486111,0.0234618,656.375,497.959,0.12809,8.66534,0.84689,8006.0,6.50842,0.142569,13882,43612.4,0.0217895,1.54292,0.463346,2.7,0.895715,18.4978
67,495.684,0.00486111,0.0230773,654.409,495.684,0.126977,8.67596,0.84689,8006.0,6.52064,0.143484,14538.3,45681.8,0.024877,1.61575,0.463453,2.69984,0.893032,18.5144
68,492.027,0.00490741,0.0233781,650.369,492.027,0.127229,8.67243,0.846906,8006.0,6.54113,0.142781,15192.7,47743.8,0.0226705,1.6883,0.463907,2.69994,0.887519,18.3238
69,489.738,0.00489583,0.0231331,648.445,489.738,0.129894,8.67948,0.846902,8006.0,6.53459,0.142799,15843.1,49795.2,0.0243227,1.76043,0.463512,2.69982,0.884893,18.4079
70,486.075,0.00497685,0.0236704,644.31,486.075,0.126053,8.66888,0.846929,8006.0,6.59593,0.143927,16491.6,51839.3,0.0230197,1.83229,0.461978,2.69979,0.87925,18.1089
71,484.805,0.00493055,0.023192,643.507,484.805,0.124688,8.70736,0.846914,8006.0,6.57712,0.144536,17135.9,53873.1,0.0265103,1.90372,0.462229,2.70003,0.878155,18.2461
72,482.536,0.00493055,0.0226724,641.331,482.536,0.130073,8.66888,0.846914,8006.0,6.54313,0.141685,17779.4,55902.4,0.0242035,1.97501,0.46398,2.69987,0.875186,18.2786
73,479.033,0.00502315,0.0231822,637.28,479.033,0.127583,8.7039,0.846944,8006.0,6.6141,0.142773,18420.7,57924.8,0.0253062,2.04605,0.4629,2.700073,0.869657,17.9185
74,478.036,0.00496527,0.0225978,636.622,478.036,0.125653,8.69697,0.846925,8006.0,6.57307,0.142367,19058,59937.9,0.0273125,2.11666,0.462789,2.70011,0.868758,18.151
75,474.942,0.0049537,0.0224481,633.996,474.942,0.12752,8.65464,0.846922,8006.0,6.55873,0.14191,19694.6,61946.9,0.025106,2.18715,0.462953,2.70011,0.865175,18.161
76,471.855,0.00505787,0.0226383,630.161,471.855,0.128221,8.70044,0.846955,8006.0,6.62447,0.141562,20328.6,63947.1,0.025808,2.25732,0.463793,2.69983,0.859942,17.8432
77,470.207,0.00499999,0.021889,629.078,470.207,0.128735,8.69349,0.846937,8006.0,6.56258,0.13946,20958.8,65937.8,0.0288157,2.32709,0.465227,2.69987,0.858464,18.1293
78,465.91,0.00508102,0.0223256,622.933,465.91,0.131053,8.71768,0.846963,8006.0,6.64207,0.141637,21587.8,67922.7,0.0266103,2.3967,0.463957,2.700027,0.850079,17.77
79,464.644,0.00504629,0.0216378,622.466,464.644,0.126702,8.71081,0.846952,8006.0,6.61613,0.141071,22210.8,69892.6,0.0304345,2.46569,0.465528,2.70015,0.849441,17.8524
80,458.89,0.00510416,0.021554,620.331,458.89,0.128711,8.72792,0.84697,8006.0,6.65499,0.141379,22833.2,71859.9,0.0254208,2.53456,0.465156,2.69995,0.846528,17.6817
81,459.107,0.00511574,0.0216698,616.164,459.107,0.126638,8.73471,0.846974,8006.0,6.6371,0.139357,23453.6,73820.8,0.0261228,2.60303,0.46532,2.69999,0.840841,17.6418
82,458.082,0.00505786,0.0210431,615.968,458.082,0.129488,8.69349,0.846955,8006.0,6.5867,0.137944,24069.7,75772.2,0.0303345,2.67123,0.468098,2.700027,0.840574,17.8116
83,455.015,0.00505786,0.0212956,613.503,455.015,0.129573,8.70044,0.846955,8006.0,6.62864,0.141537,24685.7,77721,0.0267248,2.73935,0.464457,2.700027,0.83721,17.772
84,451.316,0.00515046,0.0213687,609.617,451.316,0.12921,8.72792,0.846984,8006.0,6.67325,0.140325,25299.2,79661.3,0.0267248,2.80718,0.465433,2.700027,0.831907,17.5154
85,450.307,0.00509259,0.0209359,609.023,450.307,0.128049,8.71425,0.846966,8006.0,6.63267,0.1399,25908.8,81591.9,0.0311368,2.87458,0.465967,2.70019,0.831096,17.7062
86,448.007,0.00505786,0.0205236,607.37,448.007,0.128532,8.69349,0.846955,8006.0,6.60147,0.139204,26517.8,83518.4,0.02973,2.94188,0.466239,2.69991,0.82884,17.8512
87,445.952,0.00505786,0.0206476,605.592,445.952,0.127642,8.69,0.846955,8006.0,6.62175,0.140733,27125.2,85438.2,0.0290293,3.00896,0.466401,2.70003,0.826414,17.7957
88,442.053,0.00513889,0.0205849,601.558,442.053,0.130302,8.72451,0.846981,8006.0,6.66517,0.140036,27730.8,87351.7,0.02963,3.07582,0.466792,2.69995,0.82091,17.5081
89,429.91,0.00493055,0.0226228,586.044,429.91,0.13012,8.67243,0.846914,8006.0,6.53304,0.139745,28332.4,89255.5,0.0336413,3.14225,0.465159,2.70015,0.799739,18.238
90,432.8,0.00534722,0.0159312,586.384,432.8,0.136601,8.74819,0.847042,8006.0,6.5659,0.130024,28918.4,91107.1,0.0323385,3.20692,0.473584,2.69981,0.800202,16.8573
91,427.448,0.00518519,0.0253757,579.023,427.448,0.129927,8.73809,0.846995,8006.0,6.85365,0.152705,29504.8,92954,0.0321883,3.27214,0.456301,2.70002,0.790157,17.352
92,570.159,0.00482639,0.0124832,728.746,570.159,0.125595,8.62936,0.846878,8007.0,6.4052,0.131243,0.0,0.0,0.0,0.0,0.479228,2.69989,1.0,18.6811
93,560.763,0.00476851,0.013812,720.348,560.763,0.126749,8.60733,0.846858,8007.0,6.36808,0.132062,728.746,2282.26,0.0193983,0.0811548,0.476982,2.69989,0.988476,18.8487
94,556.672,0.00476851,0.0149987,716.214,556.672,0.128269,8.61839,0.846858,8007.0,6.37694,0.13316,1449.09,4536.83,0.0166933,0.161321,0.475019,2.70005,0.982803,18.9828
95,555.061,0.0047338,0.0158119,713.955,555.061,0.125118,8.61471,0.846845,8007.0,6.35205,0.133218,2165.31,6779.38,0.0168937,0.241018,0.475668,2.69991,0.979704,18.995
96,550.977,0.00473379,0.0167316,710.35,550.977,0.127158,8.61102,0.846846,8007.0,6.38121,0.136105,2879.26,9015.7,0.0177388,0.320485,0.472156,2.70011,0.974757,19.0456
97,548.03,0.00472222,0.0170534,707.604,548.03,0.126956,8.59619,0.846841,8007.0,6.36548,0.13564,3589.61,11241.5,0.016337,0.399506,0.472754,2.70003,0.970989,19.0669
98,545.466,0.00472222,0.0178932,705.104,545.466,0.127278,8.58871,0.846841,8007.0,6.37426,0.136609,4297.22,13459.2,0.016337,0.47821,0.471939,2.699991,0.967558,19.0922
99,544.76,0.00472222,0.0178746,705.008,544.76,0.126106,8.61839,0.846841,8007.0,6.35513,0.135482,5002.32,15669.4,0.0161367,0.556628,0.471496,2.70009,0.967426,19.1261
100,541.906,0.00471064,0.0184917,702.204,541.906,0.126445,8.59991,0.846837,8007.0,6.37193,0.137374,5707.33,17879.5,0.0175815,0.635026,0.471025,2.70009,0.963579,19.105
101,539.848,0.00469907,0.0186008,700.107,539.848,0.128195,8.60733,0.846833,8007.0,6.35807,0.136874,6409.53,20081.4,0.0163788,0.713084,0.470778,2.70009,0.9607,19.1691
102,537.779,0.00471064,0.0190952,698.025,537.779,0.126769,8.61102,0.846837,8007.0,6.38316,0.13871,7109.64,22277.1,0.0167793,0.790901,0.46886,2.70005,0.957844,19.173
103,535.536,0.00467596,0.0191613,695.961,535.536,0.128023,8.61471,0.846824,8007.0,6.33962,0.137289,7807.67,24466.6,0.015878,0.868477,0.468837,2.70013,0.955012,19.2636
104,533.687,0.00469911,0.0196307,694.003,533.687,0.126353,8.59991,0.846833,8007.0,6.36558,0.138106,8503.63,26650,0.0164787,0.94582,0.468719,2.70009,0.952325,19.2115
105,531.834,0.00468754,0.0200289,692.1,531.834,0.127443,8.62936,0.846829,8007.0,6.37071,0.139395,9197.63,28827.6,0.0170795,1.02293,0.467784,2.70013,0.949713,19.2076
106,529.978,0.00469913,0.0203953,690.271,529.978,0.126968,8.60363,0.846833,8007.0,6.36886,0.138635,9889.73,30999.5,0.0170795,1.09983,0.468162,2.69989,0.947204,19.2028
107,526.46,0.00469907,0.0215633,686.462,526.46,0.128215,8.61839,0.846833,8007.0,6.38484,0.140494,10580,33165.9,0.01738,1.17651,0.465652,2.70021,0.941977,19.1435
108,522.392,0.00472222,0.0226404,682.458,522.392,0.126964,8.64024,0.846841,8007.0,6.42042,0.142407,11266.5,35321.3,0.0185053,1.25276,0.464681,2.70009,0.936483,19.016
109,520.294,0.00476852,0.0232377,680.167,520.294,0.126257,8.59619,0.846858,8007.0,6.44909,0.14255,11948.9,37464.6,0.0186055,1.32853,0.463221,2.69994,0.933339,18.9492
110,518.426,0.00479167,0.023763,677.998,518.426,0.12651,8.64746,0.846866,8007.0,6.4802,0.143721,12629.1,39601.1,0.0192765,1.40404,0.463574,2.700165,0.930362,18.8161
111,516.44,0.00478009,0.0236161,676.451,516.44,0.127542,8.62205,0.846862,8007.0,6.46863,0.143576,13307.1,41731.2,0.0191085,1.47931,0.463083,2.69992,0.928239,18.8533
112,514.345,0.00482639,0.0241026,673.938,514.345,0.126056,8.66178,0.846878,8007.0,6.50349,0.144204,13983.5,43855.6,0.0175053,1.55435,0.461799,2.700007,0.924791,18.7143
113,512.542,0.00482638,0.0240016,672.469,512.542,0.127665,8.61839,0.846878,8007.0,6.51425,0.145013,14657.5,45973.2,0.0198035,1.62914,0.461571,2.700047,0.922775,18.706
114,510.236,0.00483796,0.0242662,669.815,510.236,0.128654,8.65821,0.846882,8007.0,6.50282,0.14371,15329.9,48085.3,0.0177995,1.70372,0.462241,2.69987,0.919134,18.5953
115,508.437,0.00486111,0.02426,668.316,508.437,0.127262,8.64386,0.84689,8007.0,6.54942,0.146028,15999.8,50190.2,0.019738,1.77802,0.462201,2.69995,0.917077,18.5152
116,505.723,0.00489583,0.0242507,665.206,505.723,0.125299,8.63662,0.846902,8007.0,6.55163,0.144629,16668.1,52289.2,0.0181345,1.85211,0.46145,2.69992,0.912809,18.3678
117,503.91,0.00487268,0.0241044,663.937,503.91,0.129147,8.64024,0.846894,8007.0,6.53698,0.144578,17333.3,54380.1,0.0207333,1.92588,0.46156,2.70004,0.911068,18.4631
118,501.851,0.00488425,0.0237416,662.03,501.851,0.125916,8.68299,0.846898,8007.0,6.52601,0.143056,17997.2,56465.8,0.0194305,1.99946,0.462416,2.69996,0.908451,18.4522
119,499.381,0.00496528,0.0243693,658.902,499.381,0.127541,8.66888,0.846926,8007.0,6.59201,0.144353,18659.2,58545.2,0.019732,2.07281,0.461113,2.7,0.904158,18.1518
120,497.95,0.00491897,0.0236597,657.9,497.95,0.126651,8.66534,0.84691,8007.0,6.53362,0.141884,19318.1,60617.1,0.0210338,2.14584,0.462842,2.70012,0.902784,18.3385
121,495.887,0.00493055,0.0237904,655.916,495.887,0.12694,8.67243,0.846914,8007.0,6.56714,0.14403,19976,62684.4,0.0192303,2.21872,0.461643,2.69992,0.900061,18.2793
122,493.214,0.005,0.0237899,652.825,493.214,0.128101,8.69349,0.846937,8007.0,6.60098,0.143116,20632,64745,0.0203328,2.29136,0.462221,2.6998,0.89582,18.018
123,491.765,0.00496527,0.0235291,651.848,491.765,0.125491,8.68299,0.846926,8007.0,6.58406,0.143289,21284.8,66797.8,0.0219363,2.36367,0.463364,2.70028,0.894479,18.1438
124,489.657,0.00502315,0.0234029,647.499,489.657,0.126861,8.71081,0.846944,8007.0,6.61664,0.142946,21936.6,68845.6,0.021234,2.43583,0.46271,2.699913,0.888511,17.9749
125,488.06,0.00501157,0.0229642,646.832,488.06,0.12616,8.71768,0.846941,8007.0,6.58933,0.141343,22584.1,70882.5,0.023145,2.50758,0.463293,2.70007,0.887595,18.0563
126,481.691,0.00506944,0.023134,645.304,481.691,0.128176,8.7211,0.846959,8007.0,6.6448,0.142797,23231,72916.7,0.0203388,2.5792,0.462903,2.70007,0.885499,17.7323
127,484.366,0.00508102,0.0230364,642.437,484.366,0.127957,8.7211,0.846963,8007.0,6.64634,0.14217,23876.3,74946.1,0.0201385,2.65046,0.463211,2.70007,0.881565,17.7864
128,482.923,0.00503472,0.022803,641.92,482.923,0.128007,8.69349,0.846948,8007.0,6.61101,0.141771,24518.7,76968.1,0.0214415,2.72161,0.462961,2.69999,0.880856,17.9258
129,480.873,0.00504629,0.0228349,640.22,480.873,0.125237,8.68299,0.846952,8007.0,6.64032,0.143744,25160.6,78987.2,0.020439,2.79266,0.461596,2.69983,0.878523,17.8768
130,478.401,0.00510417,0.0223556,637.262,478.401,0.128166,8.7211,0.84697,8007.0,6.65015,0.141058,25800.8,81000.5,0.0209408,2.86349,0.464806,2.70003,0.874464,17.6354
131,477.124,0.00508102,0.0225072,636.462,477.124,0.130209,8.69,0.846963,8007.0,6.64696,0.141988,26438.1,83005.9,0.0227445,2.93402,0.463698,2.7001,0.873366,17.7707
132,474.688,0.00503472,0.021896,634.883,474.688,0.127144,8.70736,0.846948,8007.0,6.59706,0.140334,27074.6,85007.4,0.023182,3.00443,0.465108,2.69986,0.8712,17.8544
133,473.039,0.00504629,0.0218316,633.386,473.039,0.125316,8.69,0.846952,8007.0,6.59125,0.139334,27709.5,87002.8,0.0223808,3.07462,0.465314,2.69998,0.869145,17.9006
134,470.58,0.00513889,0.0224694,630.556,470.58,0.128687,8.73809,0.846981,8007.0,6.71703,0.144659,28342.8,88993,0.0233823,3.14463,0.462798,2.69998,0.865261,17.4855
135,469.132,0.00505786,0.0217006,630.006,469.132,0.127533,8.70736,0.846956,8007.0,6.6153,0.140421,28973.4,90976.1,0.0254875,3.21435,0.465534,2.70002,0.864506,17.8045
136,465.639,0.00506944,0.0215348,626.749,465.639,0.126606,8.71768,0.846959,8007.0,6.62586,0.140868,29603.4,92955,0.023884,3.28396,0.46453,2.70013,0.860038,17.7875
137,461.893,0.00513889,0.021433,623.046,461.893,0.126953,8.71081,0.846981,8007.0,6.67417,0.141075,30230.2,94923,0.023908,3.35318,0.464677,2.69988,0.854957,17.571
138,459.666,0.00508101,0.0209068,621.901,459.666,0.129416,8.69,0.846963,8007.0,6.6134,0.139169,30853.2,96880,0.0274472,3.42197,0.466218,2.7,0.853385,17.7392
139,457.359,0.00524305,0.0212657,618.823,457.359,0.126678,8.78463,0.847012,8007.0,6.7091,0.138605,31475.1,98831.5,0.0255435,3.49059,0.465796,2.69995,0.849162,17.2608
140,456.568,0.00512731,0.0209443,618.955,456.568,0.127244,8.71425,0.846977,8007.0,6.64215,0.139065,32093.9,100777,0.0266627,3.55892,0.465649,2.69999,0.849342,17.6106
141,454.914,0.00512731,0.0208814,617.528,454.914,0.129579,8.73132,0.846977,8007.0,6.64578,0.139179,32712.9,102719,0.0258605,3.6272,0.466914,2.69983,0.847384,17.6028
142,451.85,0.00523148,0.0208027,614.293,451.85,0.128928,8.74483,0.847009,8007.0,6.69664,0.137929,33330.4,104656,0.026062,3.69529,0.466988,2.70023,0.842945,17.1843
143,451.836,0.00515046,0.0209665,614.569,451.836,0.127211,8.71081,0.846984,8007.0,6.67463,0.140312,33944.7,106587,0.028066,3.76306,0.465569,2.69995,0.843324,17.5394
144,449.784,0.00510416,0.0207095,613.115,449.784,0.128214,8.7211,0.84697,8007.0,6.61999,0.138415,34559.3,108514,0.0270632,3.83081,0.466241,2.69991,0.841328,17.6355
145,448.569,0.00513889,0.0207833,611.346,448.569,0.127262,8.73809,0.846981,8007.0,6.65185,0.139115,35172.4,110436,0.0272637,3.89838,0.466422,2.69995,0.838902,17.5321
146,446.912,0.00513888,0.0207735,610.033,446.912,0.126986,8.73809,0.846981,8007.0,6.66263,0.139922,35783.7,112353,0.0291675,3.96577,0.465298,2.700109,0.8371,17.6177
147,445.265,0.00511573,0.0204005,608.809,445.265,0.128352,8.70736,0.846974,8007.0,6.63635,0.138666,36393.8,114265,0.0284665,4.03298,0.46799,2.70003,0.835419,17.58
148,442.774,0.00524305,0.0206711,606.053,442.774,0.128656,8.73132,0.847012,8007.0,6.7211,0.139136,37002.6,116172,0.0290673,4.10003,0.466452,2.70004,0.831639,17.2151
149,442.18,0.00512731,0.0203181,605.903,442.18,0.128189,8.71768,0.846977,8007.0,6.64106,0.138648,37608.6,118074,0.0328545,4.1668,0.467333,2.70028,0.831433,17.5482
150,440.735,0.00512731,0.0203651,604.652,440.735,0.127833,8.73809,0.846977,8007.0,6.63565,0.138108,38214.5,119971,0.028947,4.23352,0.468171,2.7,0.829715,17.5638
151,438.091,0.00527778,0.0205891,601.84,438.091,0.127387,8.74819,0.847023,8007.0,6.74368,0.139296,38819.2,121865,0.0291473,4.30008,0.466402,2.69996,0.825857,17.1021
152,438.274,0.00515046,0.0204282,602.016,438.274,0.127142,8.73132,0.846984,8007.0,6.6698,0.139823,39421,123754,0.0327545,4.36635,0.466495,2.70012,0.826099,17.4928
153,436.839,0.00513888,0.0202858,600.727,436.839,0.126011,8.73471,0.846981,8007.0,6.65309,0.139027,40023,125639,0.029848,4.43261,0.466811,2.7,0.82433,17.5399
154,435.979,0.00532407,0.0211882,598.758,435.979,0.129165,8.78136,0.847036,8007.0,6.79324,0.140819,40623.8,127520,0.0301485,4.49872,0.4652,2.70022,0.821627,16.9011
155,435.794,0.00518518,0.0208752,599.049,435.794,0.127355,8.71081,0.846995,8007.0,6.71323,0.141655,41222.5,129403,0.0317078,4.5647,0.464595,2.699975,0.822027,17.3528
156,434.357,0.0051736,0.0208223,597.852,434.357,0.126606,8.74483,0.846992,8007.0,6.69524,0.140674,41821.6,131281,0.0289015,4.63065,0.465889,2.70006,0.820384,17.3916
157,430.869,0.00533565,0.021167,594.992,430.869,0.127629,8.7879,0.847039,8007.0,6.81369,0.14189,42419.4,133155,0.0288015,4.69645,0.465039,2.70006,0.816459,16.8495
158,431.677,0.00518519,0.0207858,597.159,431.677,0.128428,8.71425,0.846995,8007.0,6.69512,0.140086,43014.4,135025,0.0330095,4.76194,0.465394,2.69989,0.819434,17.4607
159,429.633,0.00516203,0.0205682,593.966,429.633,0.129186,8.71425,0.846988,8007.0,6.68531,0.140406,43611.6,136896,0.0217873,4.82753,0.466049,2.70002,0.815052,17.4227
160,427.975,0.00516203,0.0203099,592.769,427.975,0.128759,8.74147,0.846988,8007.0,6.66172,0.138585,44205.5,138756,0.0307053,4.89284,0.466302,2.699975,0.813409,17.4847
161,425.922,0.00521991,0.0205672,590.698,425.922,0.126914,8.74147,0.847005,8007.0,6.70229,0.138858,44798.3,140611,0.031206,4.958,0.466412,2.70002,0.810568,17.253
162,425.097,0.0051736,0.0203316,589.965,425.097,0.128026,8.73471,0.846992,8007.0,6.67057,0.138372,45389,142461,0.0353137,5.02294,0.468186,2.70022,0.809562,17.4302
163,423.453,0.00516203,0.020277,588.622,423.453,0.128982,8.71768,0.846988,8007.0,6.67523,0.139457,45979,144306,0.0322085,5.08776,0.46745,2.70006,0.807719,17.4227
164,421.001,0.00527778,0.0203404,586.511,421.001,0.129088,8.76487,0.847023,8007.0,6.73285,0.138254,46567.6,146146,0.0320082,5.15241,0.467174,2.69985,0.804822,17.1399
165,420.786,0.00518518,0.0203153,586.065,420.786,0.12987,8.73471,0.846995,8007.0,6.69665,0.139814,47154.1,147983,0.0376193,5.21683,0.467674,2.70018,0.80421,17.376
166,419.341,0.0051736,0.0203239,584.962,419.341,0.127987,8.72792,0.846992,8007.0,6.68985,0.140031,47740.2,149814,0.0336115,5.28118,0.466949,2.69973,0.802696,17.3993
167,416.276,0.00530092,0.0204692,582.84,416.276,0.127085,8.73471,0.847029,8007.0,6.75185,0.138584,48325.1,151641,0.03341,5.34539,0.467102,2.70006,0.799784,17.0276
168,417.08,0.00518518,0.020125,582.807,417.08,0.126812,8.75489,0.846995,8007.0,6.67576,0.138325,48908,153466,0.0385205,5.40936,0.467851,2.7001,0.799739,17.4222
169,568.235,0.00486111,0.0118833,727.528,568.235,0.130215,8.67243,0.846891,8008.0,6.41109,0.130456,0.0,0.0,0.0,0.0,0.479065,2.70001,1.0,18.521
170,560.401,0.00480324,0.0128692,720.044,560.401,0.127597,8.63662,0.84687,8008.0,6.3867,0.131812,727.528,2279.58,0.0247448,0.080994,0.477117,2.69969,0.989713,18.8102
171,554.002,0.00472222,0.0149054,713.437,554.002,0.129236,8.60733,0.846841,8008.0,6.35309,0.133962,1447.57,4534.67,0.0186305,0.161082,0.474589,2.70006,0.980632,19.0474
172,549.579,0.00472222,0.0159392,709.543,549.579,0.128218,8.59991,0.846841,8008.0,6.37178,0.135783,2161.01,6770.35,0.0188023,0.240445,0.473089,2.69986,0.97528,19.0644
173,546.627,0.00472222,0.0165731,706.603,546.627,0.126063,8.62205,0.846841,8008.0,6.37801,0.13641,2870.55,8993.96,0.0171988,0.319328,0.472807,2.70026,0.971238,19.0644
174,543.826,0.00469907,0.0167021,703.927,543.826,0.128177,8.61839,0.846833,8008.0,6.34662,0.135324,3577.15,11208.6,0.0167983,0.397874,0.473008,2.69998,0.96756,19.1751
175,543.441,0.00469907,0.0172957,702.827,543.441,0.128237,8.60733,0.846833,8008.0,6.34166,0.135158,4281.08,13415.1,0.0168985,0.476108,0.473,2.70022,0.966048,19.1325
176,540.15,0.00472222,0.0179028,699.66,540.15,0.126097,8.61471,0.846841,8008.0,6.39259,0.138236,4983.91,15618.3,0.0182955,0.554292,0.470536,2.70018,0.961696,19.1152
177,537.875,0.00469907,0.018272,697.505,537.875,0.126336,8.62571,0.846833,8008.0,6.36673,0.137754,5683.57,17812.2,0.0174945,0.63209,0.469524,2.6999,0.958733,19.2091
178,535.791,0.00468749,0.0182055,695.446,535.791,0.127344,8.60733,0.846829,8008.0,6.33898,0.136095,6381.07,19999.5,0.0169925,0.709636,0.471059,2.7001,0.955903,19.2479
179,533.963,0.00469911,0.0189605,693.384,533.963,0.127242,8.59991,0.846833,8008.0,6.39338,0.140095,7076.52,22180.5,0.0174945,0.786946,0.468523,2.7001,0.953069,19.1579
180,531.896,0.00467596,0.0188354,691.353,531.896,0.128063,8.58871,0.846824,8008.0,6.34699,0.137595,7769.91,24355.3,0.016592,0.864018,0.470518,2.6999,0.950276,19.2098
181,530.051,0.00468754,0.0189859,689.351,530.051,0.127996,8.58871,0.846829,8008.0,6.35857,0.13801,8461.26,26524,0.0176948,0.940859,0.468894,2.7001,0.947525,19.2562
182,528.405,0.00469913,0.0197515,687.492,528.405,0.127646,8.60363,0.846833,8008.0,6.36429,0.138029,9150.61,28686.7,0.0175945,1.01747,0.468615,2.699939,0.94497,19.26
183,524.768,0.00469907,0.0209778,683.693,524.768,0.128603,8.61102,0.846833,8008.0,6.37693,0.139597,9838.1,30843.8,0.0174945,1.09386,0.466556,2.69991,0.939748,19.2006
184,520.855,0.00472222,0.0223958,679.848,520.855,0.130226,8.60363,0.846841,8008.0,6.43313,0.143351,10521.8,32990,0.0192765,1.16983,0.463715,2.70015,0.934464,19.0813
185,518.571,0.00474537,0.0228446,677.445,518.571,0.128311,8.61471,0.84685,8008.0,6.43209,0.142207,11201.6,35124.6,0.0196773,1.24534,0.464315,2.69969,0.931161,19.0306
186,516.677,0.00475694,0.0232013,675.271,516.677,0.12928,8.62571,0.846854,8008.0,6.45112,0.14332,11879.1,37252.3,0.0199155,1.32058,0.463802,2.69998,0.928171,18.9591
187,514.651,0.00476851,0.0237285,673.784,514.651,0.12792,8.61471,0.846858,8008.0,6.48028,0.1451,12554.4,39373.5,0.0200037,1.39557,0.462861,2.70002,0.926128,18.9133
188,512.397,0.00478009,0.0241251,671.162,512.397,0.126766,8.633,0.846862,8008.0,6.47979,0.144901,13228.1,41489.4,0.018901,1.47034,0.461037,2.69997,0.922524,18.8593
189,510.763,0.00478009,0.0233541,669.738,510.763,0.127932,8.62571,0.846862,8008.0,6.45541,0.142394,13899.3,43598.3,0.0207168,1.54484,0.464204,2.70005,0.920567,18.9094
190,507.696,0.00482639,0.0245647,666.34,507.696,0.127325,8.62571,0.846879,8008.0,6.51193,0.145155,14569,45701.8,0.0195137,1.61913,0.460977,2.70018,0.915896,18.7119
191,505.026,0.00480323,0.0236836,664.419,505.026,0.128413,8.62936,0.84687,8008.0,6.46548,0.142241,15235.4,47795.9,0.021501,1.69307,0.463585,2.6999,0.913255,18.7685
192,502.157,0.00488426,0.0247404,660.66,502.157,0.129205,8.65821,0.846898,8008.0,6.54453,0.144954,15899.8,49882.9,0.0194973,1.76674,0.46072,2.69996,0.908089,18.4907
193,500.082,0.00484953,0.0235437,659.29,500.082,0.127823,8.63662,0.846887,8008.0,6.50443,0.143123,16560.5,51960.2,0.022041,1.84002,0.463074,2.69996,0.906206,18.5981
194,497.614,0.00484953,0.0236572,656.703,497.614,0.127319,8.64746,0.846887,8008.0,6.50109,0.142926,17219.8,54031.5,0.020738,1.91309,0.462749,2.69988,0.90265,18.5816
195,494.519,0.00493056,0.0240304,652.605,494.519,0.129182,8.66888,0.846914,8008.0,6.55602,0.143114,17876.5,56094.6,0.021339,1.98586,0.46348,2.69988,0.897016,18.2363
196,492.701,0.00489583,0.0233229,651.522,492.701,0.128787,8.67948,0.846902,8008.0,6.52291,0.142142,18529.1,58147.8,0.0235443,2.05821,0.463522,2.69992,0.895528,18.4145
197,490.217,0.0049074,0.0233445,649.233,490.217,0.128708,8.67243,0.846906,8008.0,6.55091,0.143743,19180.6,60195.9,0.0212388,2.13039,0.463053,2.70013,0.892383,18.3304
198,487.34,0.00498843,0.0234651,645.703,487.34,0.128753,8.70044,0.846933,8008.0,6.60783,0.144293,19829.8,62236.3,0.021941,2.20228,0.461336,2.70004,0.887531,18.0814
199,485.48,0.00491898,0.022594,644.67,485.48,0.128347,8.67596,0.84691,8008.0,6.53155,0.141433,20475.5,64267.5,0.0244468,2.27382,0.464391,2.69988,0.88611,18.3036
200,481.978,0.00498843,0.0226923,639.133,481.978,0.128604,8.66888,0.846933,8008.0,6.58073,0.141961,21120.2,66293.3,0.0224417,2.34518,0.463085,2.70004,0.8785,18.0414
201,480.318,0.00496527,0.0220742,638.418,480.318,0.130089,8.68299,0.846926,8008.0,6.55552,0.140718,21759.3,68304.8,0.0252693,2.41601,0.464993,2.69992,0.877517,18.1091
202,473.963,0.00504629,0.0220432,636.113,473.963,0.127158,8.69349,0.846952,8008.0,6.61461,0.141371,22397.7,70313.2,0.0220625,2.48669,0.46386,2.69992,0.874349,17.9142
203,475.006,0.00506945,0.0225343,632.034,475.006,0.126283,8.71081,0.846959,8008.0,6.64443,0.142517,23033.9,72314.5,0.0227635,2.55692,0.464067,2.69996,0.868742,17.7615
204,473.151,0.00499999,0.0218384,631.316,473.151,0.129662,8.6865,0.846937,8008.0,6.58083,0.141002,23665.9,74306,0.0252693,2.62692,0.464687,2.69988,0.867755,17.9997
205,470.703,0.00502314,0.0214871,629.14,470.703,0.128191,8.72451,0.846944,8008.0,6.57612,0.139299,24297.2,76293.3,0.023164,2.69677,0.465533,2.7,0.864765,18.0284
206,467.418,0.00508102,0.0218559,625.467,467.418,0.129463,8.71425,0.846963,8008.0,6.63872,0.141386,24926.3,78273,0.0240665,2.76636,0.464415,2.69992,0.859716,17.7055
207,466.177,0.0050463,0.0217211,624.586,466.177,0.126931,8.70044,0.846952,8008.0,6.62223,0.141743,25551.8,80243.4,0.0272743,2.83557,0.465143,2.69993,0.858504,17.8587
208,463.282,0.00498842,0.020942,622.634,463.282,0.128724,8.66888,0.846933,8008.0,6.55494,0.139258,26176.4,82209,0.0267355,2.90464,0.466463,2.70005,0.855821,18.0173
209,461.017,0.00501157,0.020987,620.476,461.017,0.12876,8.69697,0.846941,8008.0,6.5813,0.140043,26799,84166.7,0.0262337,2.97345,0.46645,2.70001,0.852855,17.9822
210,457.937,0.00509259,0.0208421,616.998,457.937,0.132501,8.73132,0.846967,8008.0,6.62788,0.139646,27419.5,86117.1,0.0266355,3.042,0.466037,2.70025,0.848075,17.6889
211,456.892,0.00503472,0.0204442,616.339,456.892,0.126336,8.71081,0.846948,8008.0,6.57659,0.138582,28036.5,88059.2,0.0313453,3.11018,0.466227,2.69989,0.847169,18.0347
212,452.177,0.00502315,0.0201243,612.273,452.177,0.128546,8.71425,0.846944,8008.0,6.57638,0.138909,28652.8,89996.1,0.0278382,3.17824,0.467388,2.69975,0.84158,17.9249
213,447.629,0.00508102,0.0202903,607.326,447.629,0.127737,8.70736,0.846963,8008.0,6.63013,0.140126,29265.1,91919.8,0.0286023,3.24582,0.466556,2.7001,0.834781,17.729
214,445.365,0.00502314,0.0197351,605.942,445.365,0.128958,8.66888,0.846945,8008.0,6.55091,0.136756,29872.4,93828.9,0.0325387,3.31285,0.469008,2.70006,0.832878,17.9727
215,441.241,0.00523148,0.0204595,601.89,441.241,0.125773,8.74819,0.847009,8008.0,6.69628,0.137702,30478.4,95731.8,0.030735,3.37966,0.468493,2.70006,0.827309,17.2815
216,441.035,0.00508101,0.0202558,601.935,441.035,0.127558,8.71081,0.846963,8008.0,6.62644,0.13984,31080.3,97628.1,0.034241,3.44606,0.466713,2.70002,0.82737,17.7134
217,438.768,0.00506944,0.0202353,600.008,438.768,0.129326,8.69697,0.846959,8008.0,6.62314,0.140351,31682.2,99519.4,0.030332,3.51242,0.46517,2.70002,0.824721,17.7853
218,434.473,0.00523148,0.0203309,596.349,434.473,0.131724,8.75154,0.847009,8008.0,6.71522,0.139183,32282.2,101404,0.0314348,3.57854,0.467222,2.69994,0.819692,17.205
219,434.869,0.00506944,0.019898,596.227,434.869,0.126256,8.72792,0.846959,8008.0,6.60563,0.138798,32878.6,103283,0.0363463,3.64426,0.467166,2.7001,0.819524,17.738
220,433.034,0.00506944,0.0196841,594.341,433.034,0.129372,8.69349,0.846959,8008.0,6.5875,0.137179,33474.8,105156,0.0327378,3.70994,0.468632,2.7001,0.816932,17.8168
221,430.788,0.00510417,0.0196688,592.015,430.788,0.129035,8.68299,0.84697,8008.0,6.62773,0.138806,34069.1,107022,0.032938,3.77539,0.466785,2.70002,0.813735,17.641
222,428.722,0.00505786,0.0193673,590.484,428.722,0.128592,8.69697,0.846956,8008.0,6.58963,0.137977,34661.1,108883,0.0370472,3.8406,0.468079,2.70002,0.811631,17.818
223,426.667,0.00504629,0.0192494,588.582,426.667,0.128793,8.71081,0.846952,8008.0,6.57941,0.137614,35251.6,110736,0.032938,3.90559,0.468738,2.6999,0.809017,17.8191
224,422.572,0.00518519,0.0197165,585.288,422.572,0.129956,8.74147,0.846995,8008.0,6.67668,0.138343,35840.2,112582,0.0338405,3.97035,0.468775,2.69993,0.804489,17.3505
225,423.172,0.00506944,0.0193505,585.132,423.172,0.127426,8.69349,0.846959,8008.0,6.59506,0.137866,36425.5,114424,0.0405805,4.03473,0.467898,2.70005,0.804274,17.8168
226,420.901,0.00504629,0.0193204,583.224,420.901,0.127747,8.70736,0.846952,8008.0,6.58529,0.138415,37010.6,116260,0.034266,4.09909,0.466834,2.70009,0.801652,17.8508
227,416.007,0.00520833,0.0196278,579.871,416.007,0.130721,8.76818,0.847002,8008.0,6.68952,0.13823,37593.9,118089,0.0350683,4.16323,0.468328,2.70009,0.797043,17.2735
228,418.233,0.00505786,0.0193148,580.341,418.233,0.127137,8.71768,0.846956,8008.0,6.60416,0.139104,38173.7,119915,0.042886,4.22695,0.46766,2.69997,0.797689,17.7863
229,416.185,0.00503471,0.0191088,578.553,416.185,0.130174,8.70044,0.846948,8008.0,6.57897,0.138436,38754.1,121736,0.035669,4.29075,0.467093,2.70001,0.795232,17.8758
230,414.974,0.0052662,0.0200016,578.035,414.974,0.127558,8.76155,0.847019,8008.0,6.73063,0.138713,39332.6,123551,0.036271,4.35435,0.466826,2.70017,0.794519,17.1298
231,415.773,0.00510416,0.0199977,577.714,415.773,0.128643,8.71425,0.84697,8008.0,6.63504,0.139321,39910.7,125379,0.0394635,4.41792,0.467255,2.70025,0.794078,17.6567
232,414.143,0.00506944,0.0193411,576.42,414.143,0.128462,8.7211,0.846959,8008.0,6.59999,0.138174,40488.4,127195,0.0353545,4.48143,0.467904,2.69985,0.7923,17.7695
233,408.376,0.00524306,0.0196492,573.021,408.376,0.127512,8.75489,0.847012,8008.0,6.69806,0.137346,41064.8,129006,0.0353545,4.54478,0.467777,2.70005,0.787628,17.2052
234,410.446,0.00505787,0.0193363,574.635,410.446,0.128592,8.69349,0.846956,8008.0,6.5914,0.138032,41637.8,130816,0.0419693,4.6077,0.468555,2.70009,0.789845,17.7863
235,408.596,0.00504629,0.0191791,571.452,408.596,0.129751,8.68299,0.846952,8008.0,6.58374,0.137976,42212.4,132621,0.027136,4.67073,0.468373,2.69981,0.785471,17.827
236,406.522,0.00502314,0.0188808,569.808,406.522,0.127724,8.7039,0.846945,8008.0,6.55334,0.1369,42783.9,134414,0.0366573,4.73347,0.468681,2.70001,0.783211,17.8931
237,403.649,0.00515046,0.019431,567.566,403.649,0.128525,8.72792,0.846985,8008.0,6.65634,0.138529,43353.7,136201,0.0374595,4.79601,0.468112,2.69993,0.78013,17.5139
238,403.436,0.00505786,0.0189957,566.657,403.436,0.127994,8.68299,0.846956,8008.0,6.57728,0.136787,43921.3,137984,0.044375,4.85829,0.46932,2.70005,0.77888,17.8653
239,401.805,0.00505786,0.0192049,565.364,401.805,0.128995,8.69,0.846956,8008.0,6.59876,0.138536,44487.9,139759,0.0392633,4.92045,0.468477,2.70029,0.777102,17.818
240,397.694,0.00513889,0.0192026,562.967,397.694,0.132194,8.70736,0.846981,8008.0,6.6322,0.137351,45053.3,141530,0.0394635,4.98245,0.468241,2.70001,0.773808,17.5221
241,398.715,0.00504629,0.018928,562.6,398.715,0.128457,8.71081,0.846952,8008.0,6.57189,0.137017,45616.3,143297,0.047081,5.04415,0.469251,2.70005,0.773304,17.8587
242,397.065,0.00503472,0.0188286,561.111,397.065,0.129963,8.67948,0.846948,8008.0,6.561,0.136617,46178.9,145058,0.0399655,5.10581,0.470135,2.69993,0.771257,17.86
243,391.544,0.00519676,0.0193122,558.161,391.544,0.130389,8.76155,0.846999,8008.0,6.67878,0.138044,46740,146814,0.0405663,5.1673,0.467414,2.69997,0.767202,17.412
244,394.593,0.00505787,0.0190502,558.958,394.593,0.128053,8.7039,0.846955,8008.0,6.57792,0.136884,47298.1,148567,0.0488858,5.22839,0.469338,2.70009,0.768298,17.8259